File: measurement_files/Fig4d/RuO2 on carbon paper/231121_1_07_LSV_C01.txt
Ewe/V	<I>/mA
1.08831	0.000000000000000E+000
0.815733	-0.111868
0.834697	0.113282
0.853692	0.143188
0.872662	0.157579
0.891635	0.169319
0.910668	0.181093
0.929652	0.193486
0.948662	0.207902
0.96765	0.222938
0.986636	0.237788
1.00559	0.249005
1.02465	0.256579
1.04364	0.258603
1.06261	0.257771
1.08166	0.255359
1.1006	0.255528
1.1196	0.262446
1.1386	0.28392
1.15761	0.339151
1.17663	0.474701
1.19564	0.760735
1.21459	1.21363
1.23355	1.79324
1.25258	2.45426
1.2716	3.17071
1.29052	3.92236
1.30955	4.70248
1.32855	5.50204
1.3476	6.31713
1.36654	7.14525
1.38553	7.98322
1.4045	8.83092
1.42354	9.68545
1.4425	10.5484
0.807694	-2.08403
0.826692	0.0691174
0.845639	0.131833
0.864634	0.152381
0.883665	0.165288
0.902687	0.176126
0.921669	0.18782
0.940648	0.201017
0.959661	0.215607
0.978632	0.230813
0.997619	0.244265
1.01667	0.254278
1.03565	0.258894
1.05457	0.259188
1.07363	0.256434
1.0926	0.253753
1.11159	0.254023
1.1306	0.262695
1.14956	0.290548
1.1686	0.368312
1.18758	0.555769
1.20655	0.906336
1.22561	1.40799
1.24456	2.01634
1.26356	2.69463
1.28263	3.42172
1.30156	4.1835
1.32054	4.97066
1.33951	5.77632
1.3585	6.59313
1.37754	7.42038
1.39655	8.26046
1.41551	9.11232
1.43449	9.96763
0.799667	-16.0424
0.818631	-0.0614404
0.837673	0.107207
0.856625	0.14074
0.875679	0.157072
0.894615	0.168637
0.913669	0.17981
0.932657	0.192085
0.951645	0.205786
0.970637	0.2207
0.989606	0.235511
1.00864	0.247126
1.02765	0.254718
1.04665	0.256553
1.06563	0.254878
1.08459	0.251595
1.10359	0.250091
1.12259	0.253038
1.14157	0.268472
1.16055	0.313364
1.17956	0.432001
1.19858	0.686646
1.21757	1.10327
1.23656	1.64984
1.25559	2.28577
1.27459	2.98136
1.29356	3.71917
1.31258	4.48763
1.33155	5.27771
1.35055	6.08423
1.36948	6.90728
1.38853	7.7396
1.40753	8.58121
1.42655	9.43133
1.44551	10.2882
0.81069	-0.369021
0.829669	0.0216263
0.848737	0.0788348
0.867674	0.096614
0.886694	0.106659
0.905653	0.114797
0.924616	0.123043
0.943634	0.132241
0.962629	0.142356
0.981637	0.151839
1.00066	0.160411
1.01964	0.165646
1.03862	0.167932
1.05762	0.167234
1.07663	0.165534
1.0956	0.164177
1.11459	0.166346
1.1336	0.174827
1.15254	0.19925
1.17158	0.260599
1.19057	0.406121
1.20955	0.684075
1.22855	1.09436
1.24757	1.60358
1.26654	2.18079
1.28559	2.80507
1.30451	3.46345
1.32354	4.14874
1.34254	4.85441
1.36148	5.57786
1.3805	6.31549
1.3995	7.06616
1.41855	7.82696
1.43753	8.59744
0.80263	-4.55197
0.821703	-0.0491135
0.840666	0.0666995
0.859643	0.0908098
0.878649	0.102372
0.897682	0.110971
0.916626	0.11873
0.935623	0.127635
0.954615	0.137233
0.973607	0.147453
0.992599	0.156632
1.01164	0.164237
1.03065	0.168037
1.0496	0.168895
1.0686	0.16745
1.08758	0.165362
1.10661	0.164898
1.1256	0.168095
1.14456	0.180553
1.1636	0.214651
1.1826	0.303162
1.20158	0.498299
1.22054	0.830248
1.23955	1.28151
1.25859	1.81933
1.27756	2.41764
1.2966	3.06066
1.31555	3.73764
1.33454	4.44161
1.35354	5.1662
1.37255	5.90858
1.39152	6.66534
1.41055	7.4359
1.42952	8.21584
1.44849	9.00474
0.813677	-0.259657
0.832665	0.0479663
0.851677	0.0839591
0.870626	0.0979655
0.889646	0.106874
0.908664	0.114855
0.927673	0.122982
0.946601	0.132032
0.965612	0.142202
0.984652	0.152036
1.00361	0.160536
1.02259	0.166085
1.04163	0.167948
1.0606	0.167126
1.07958	0.165078
1.0986	0.163216
1.11762	0.164115
1.13661	0.170944
1.15562	0.191937
1.17459	0.247247
1.19362	0.381717
1.21257	0.641612
1.23156	1.0339
1.25057	1.5297
1.26957	2.10044
1.2886	2.724
1.30757	3.38881
1.32657	4.08355
1.34553	4.80302
1.3645	5.54254
1.38354	6.29841
1.40249	7.06879
1.4215	7.85277
1.44056	8.64547
0.805723	-1.30076
0.824723	0.0424551
0.843681	0.0849411
0.862627	0.099336
0.881672	0.108587
0.900624	0.117207
0.919669	0.126162
0.938652	0.136443
0.957631	0.147589
0.976639	0.1591
0.995611	0.169369
1.01458	0.176997
1.03361	0.180611
1.05259	0.181205
1.07164	0.179572
1.0906	0.178924
1.1096	0.180882
1.12859	0.189128
1.14759	0.209411
1.1666	0.257531
1.18557	0.371228
1.20457	0.608059
1.22358	0.991197
1.24257	1.49372
1.26158	2.07755
1.28057	2.71671
1.29954	3.39364
1.31852	4.09939
1.33754	4.82687
1.35654	5.57071
1.37551	6.32822
1.39449	7.0987
1.41351	7.8799
1.43251	8.66849
1.17697	0.000000000000000E+000
0.816648	-0.0501284
0.83564	0.0695339
0.854694	0.0907397
0.873691	0.101509
0.892654	0.109977
0.911632	0.11874
0.930564	0.128418
0.949573	0.139646
0.968587	0.151144
0.987654	0.162863
1.00664	0.172291
1.02563	0.178505
1.0446	0.180263
1.0636	0.179789
1.08261	0.17793
1.10161	0.177585
1.12059	0.180058
1.13957	0.190396
1.1586	0.216655
1.17759	0.285049
1.19658	0.444741
1.21558	0.742749
1.23456	1.1771
1.25358	1.71374
1.27256	2.32172
1.29155	2.97959
1.31055	3.67421
1.32951	4.39608
1.34855	5.14012
1.36751	5.90072
1.38654	6.67543
1.40554	7.46292
1.42449	8.25935
1.44353	9.06415
0.808689	-0.646675
0.827669	0.0498403
0.846661	0.0831158
0.865644	0.0954465
0.884662	0.1044
0.903629	0.112514
0.92265	0.121715
0.941643	0.132073
0.960627	0.143798
0.979634	0.155319
0.998647	0.166582
1.01764	0.174029
1.03659	0.178097
1.05561	0.178427
1.07459	0.176785
1.09363	0.175219
1.11261	0.175708
1.13158	0.181367
1.15057	0.197985
1.16957	0.241051
1.18856	0.347779
1.20756	0.572593
1.22655	0.93901
1.24555	1.42659
1.26457	2.00062
1.28359	2.63575
1.30256	3.31405
1.32157	4.02656
1.34053	4.76273
1.35949	5.52035
1.37852	6.29401
1.3975	7.08097
1.41649	7.87934
1.43552	8.68687
0.800691	-5.59744
0.819678	-0.097881
0.838709	-0.00431934
0.85764	0.0389587
0.876665	0.0660692
0.895685	0.0849384
0.914648	0.0998482
0.933649	0.112675
0.95266	0.124939
0.971595	0.136487
0.990623	0.146862
1.00963	0.154933
1.02864	0.16043
1.04764	0.163086
1.06659	0.164207
1.08555	0.16528
1.10464	0.168033
1.12361	0.174878
1.14256	0.189195
1.16159	0.219138
1.18053	0.287784
1.19957	0.438127
1.2186	0.710757
1.23751	1.10151
1.25653	1.58007
1.27554	2.11922
1.29459	2.70181
1.31353	3.31605
1.33252	3.95427
1.35153	4.61292
1.37055	5.28858
1.38948	5.97614
1.40852	6.67565
1.42752	7.38536
1.44648	8.10487
0.81169	-0.375195
0.830684	-0.078152
0.849677	0.00529062
0.868644	0.049092
0.887671	0.0753701
0.90664	0.0932871
0.925656	0.107371
0.944606	0.119932
0.963641	0.132318
0.98264	0.143648
1.00163	0.153422
1.02063	0.16055
1.03959	0.164632
1.05859	0.166084
1.07762	0.166453
1.09658	0.166424
1.11558	0.168589
1.13458	0.174845
1.15358	0.190683
1.17255	0.229713
1.19155	0.326662
1.21056	0.528113
1.22958	0.855229
1.24853	1.28859
1.26754	1.79928
1.28658	2.36462
1.30552	2.97149
1.32452	3.60874
1.34355	4.27023
1.36253	4.95203
1.38153	5.64937
1.40056	6.36079
1.41951	7.08378
1.43854	7.81598
0.803705	-2.6413
0.822652	-0.153934
0.841662	-0.0166468
0.860697	0.0414329
0.879661	0.0708022
0.898686	0.0893116
0.91767	0.102981
0.936602	0.11497
0.955643	0.12664
0.974625	0.138345
0.993607	0.148674
1.01258	0.157126
1.03159	0.162395
1.05062	0.164902
1.06962	0.164702
1.08863	0.164496
1.10757	0.164607
1.12658	0.168095
1.14561	0.178043
1.16457	0.203093
1.18358	0.266838
1.20258	0.412258
1.22156	0.678045
1.24058	1.06279
1.25956	1.54011
1.27855	2.08381
1.29751	2.67646
1.31654	3.30483
1.33548	3.96273
1.3545	4.64305
1.37353	5.34247
1.39251	6.05593
1.4115	6.78288
1.43051	7.52025
1.44914	8.24948
0.814687	-0.319011
0.833699	-0.00686359
0.852704	0.0752406
0.871698	0.108926
0.890659	0.127364
0.909598	0.141016
0.928628	0.153056
0.947651	0.166313
0.96666	0.179676
0.985666	0.192911
1.00456	0.204259
1.02363	0.212129
1.04263	0.215635
1.06159	0.215656
1.08062	0.213751
1.0996	0.212359
1.1186	0.214613
1.13759	0.224044
1.1566	0.249097
1.17559	0.30797
1.19457	0.441773
1.21356	0.69395
1.23258	1.07074
1.25157	1.541
1.27058	2.07639
1.28955	2.65689
1.30856	3.27081
1.32756	3.91045
1.34655	4.57087
1.36552	5.24718
1.38451	5.93782
1.40347	6.6407
1.42251	7.35433
1.44159	8.07666
0.806674	-1.99984
0.825698	-0.121614
0.844698	0.0481699
0.863647	0.0998441
0.882682	0.122318
0.901632	0.13685
0.920638	0.149135
0.939686	0.161438
0.958639	0.174675
0.977599	0.188602
0.996603	0.201489
1.01563	0.21171
1.03459	0.217387
1.05363	0.218918
1.0726	0.217504
1.0916	0.214876
1.11058	0.213662
1.12962	0.217206
1.14857	0.229949
1.16754	0.264013
1.18656	0.348339
1.20562	0.530862
1.22457	0.839159
1.24358	1.26073
1.26257	1.76406
1.28159	2.32519
1.30052	2.9282
1.31954	3.56285
1.33854	4.22304
1.35753	4.9043
1.37656	5.60175
1.39552	6.31412
1.4145	7.03866
1.43353	7.77424
0.799479	-16.172
0.817664	-0.324232
0.836681	0.0149185
0.855668	0.0906208
0.874651	0.117543
0.893616	0.132645
0.912634	0.144543
0.931604	0.156049
0.95061	0.168926
0.969647	0.182295
0.988657	0.195928
1.00759	0.207252
1.02665	0.215411
1.04564	0.21824
1.06463	0.217849
1.08363	0.214913
1.10257	0.212514
1.12159	0.212768
1.14061	0.220191
1.15958	0.241677
1.17859	0.297333
1.19757	0.426765
1.21659	0.673736
1.23557	1.04321
1.25456	1.51107
1.27357	2.04879
1.29254	2.63668
1.31156	3.26212
1.33054	3.91713
1.34955	4.59555
1.3685	5.29381
1.38753	6.00744
1.40653	6.73247
1.42554	7.47121
1.44456	8.21933
0.809673	-0.436521
0.828659	-0.0279236
0.847686	0.0455621
0.866652	0.0721593
0.885668	0.0858827
0.904647	0.094919
0.923637	0.102964
0.942637	0.110891
0.961665	0.119573
0.980627	0.127849
0.999634	0.135392
1.01863	0.140437
1.03762	0.142965
1.05656	0.142592
1.07558	0.14136
1.09458	0.139674
1.11358	0.140195
1.13256	0.144781
1.15158	0.158655
1.17057	0.194859
1.18957	0.283235
1.20856	0.473549
1.22755	0.798061
1.24652	1.24376
1.26555	1.77671
1.2846	2.37093
1.30357	3.00616
1.32253	3.67286
1.34154	4.36034
1.36054	5.06686
1.37951	5.78663
1.39853	6.51938
1.41754	7.25947
1.4365	8.0101
0.801738	-4.83017
0.820685	-0.116735
0.839668	0.0221643
0.858677	0.0635142
0.877665	0.0808806
0.8966	0.0909569
0.915659	0.0992134
0.934626	0.107176
0.953642	0.115507
0.972635	0.124244
0.991621	0.132568
1.01061	0.139344
1.02957	0.143084
1.04858	0.144133
1.0676	0.143084
1.08659	0.14102
1.10561	0.140108
1.12459	0.141562
1.14359	0.14892
1.16257	0.169103
1.18157	0.222547
1.20059	0.349265
1.21953	0.594515
1.23856	0.968722
1.25756	1.44857
1.27657	2.00556
1.29558	2.61835
1.31454	3.27058
1.33352	3.95434
1.35254	4.66247
1.37152	5.38748
1.39049	6.12723
1.40951	6.88381
1.42847	7.6424
1.4475	8.41899
0.812719	-0.296822
0.831637	-0.00394468
0.850665	0.0551534
0.869638	0.0767295
0.88866	0.0880122
0.907614	0.0959715
0.926634	0.103593
0.945597	0.111441
0.964647	0.120207
0.983646	0.128799
1.00262	0.136407
1.02162	0.141431
1.0406	0.143619
1.05957	0.142881
1.07864	0.141074
1.09761	0.138986
1.11661	0.138954
1.13559	0.142846
1.15454	0.155597
1.17355	0.189766
1.19257	0.275879
1.21158	0.459759
1.23055	0.772022
1.24959	1.20289
1.26856	1.72579
1.28754	2.31546
1.30655	2.9531
1.32551	3.623
1.34453	4.32675
1.36347	5.05199
1.38253	5.79132
1.40149	6.54952
1.42053	7.31253
1.43946	8.09627
0.804672	-2.8837
0.823669	-0.0557195
0.842675	0.0533045
0.861646	0.0904213
0.880685	0.113858
0.899612	0.132748
0.918588	0.149825
0.937654	0.166704
0.956675	0.183665
0.975565	0.200858
0.994645	0.216311
1.01358	0.229017
1.0326	0.236823
1.0516	0.240058
1.07059	0.239956
1.08957	0.239158
1.10856	0.240225
1.12759	0.247042
1.14661	0.263669
1.16558	0.300947
1.18459	0.383824
1.20356	0.556941
1.22256	0.848674
1.24158	1.24558
1.26055	1.71738
1.27953	2.24131
1.29853	2.80344
1.31755	3.39497
1.33656	4.01003
1.35553	4.6441
1.3745	5.29327
1.39352	5.95546
1.41252	6.63029
1.43151	7.31452
1.24526	0.000000000000000E+000
0.815607	-0.419789
0.834669	-0.0125325
0.853671	0.0576298
0.872698	0.0935727
0.891644	0.118635
0.910653	0.139415
0.929632	0.157819
0.9486	0.176292
0.967607	0.194251
0.9866	0.211872
1.00564	0.226992
1.02458	0.238199
1.04361	0.243591
1.06265	0.245028
1.08164	0.243465
1.10058	0.241877
1.11963	0.243158
1.13865	0.250169
1.1576	0.270086
1.17657	0.319614
1.19557	0.436285
1.21455	0.662548
1.23355	1.00753
1.25254	1.44531
1.27155	1.94826
1.29054	2.49809
1.3096	3.08331
1.32854	3.69603
1.34752	4.33086
1.3665	4.98407
1.38553	5.65369
1.40452	6.33703
1.42349	7.03052
1.4425	7.73386
0.807687	-2.19865
0.826698	-0.0934786
0.845679	0.0305166
0.864661	0.0795495
0.883669	0.110625
0.902653	0.133675
0.92166	0.152969
0.940652	0.170888
0.959638	0.188707
0.978577	0.206186
0.99759	0.222281
1.01663	0.235351
1.0356	0.242884
1.05459	0.245686
1.07359	0.244407
1.09259	0.242126
1.11165	0.240892
1.13057	0.244042
1.14957	0.256059
1.16859	0.288572
1.18758	0.367593
1.20657	0.538386
1.22553	0.82816
1.24456	1.22606
1.26355	1.70274
1.28246	2.23539
1.3015	2.80854
1.32052	3.41419
1.33952	4.04502
1.35852	4.69611
1.37749	5.36495
1.39651	6.04859
1.41549	6.74498
1.43449	7.45288
0.79971	-9.33837
0.818661	-0.0704323
0.837629	0.0273332
0.856653	0.057716
0.875643	0.0735243
0.894642	0.0840974
0.913646	0.0929879
0.932654	0.101494
0.951623	0.110158
0.970575	0.118944
0.989614	0.127326
1.00859	0.13346
1.02767	0.137259
1.04655	0.13817
1.06558	0.137218
1.08456	0.135663
1.10357	0.135588
1.1226	0.138242
1.14158	0.147352
1.16061	0.169635
1.17959	0.22416
1.19854	0.349553
1.21756	0.590863
1.23655	0.953023
1.25555	1.40938
1.27455	1.93046
1.29357	2.4976
1.31254	3.09779
1.33152	3.72401
1.35053	4.36956
1.36949	5.03153
1.38853	5.70799
1.40746	6.39443
1.42652	7.0919
1.44553	7.79767
0.810636	-0.306688
0.829706	-0.0044736
0.848671	0.0474465
0.867659	0.0691478
0.886651	0.0814944
0.905595	0.0905108
0.924647	0.0985045
0.9436	0.106937
0.962606	0.115951
0.981622	0.124579
1.00065	0.132319
1.01963	0.137339
1.03863	0.139723
1.0576	0.139453
1.07659	0.13784
1.09558	0.136283
1.11458	0.136913
1.13362	0.140958
1.1526	0.153448
1.17156	0.184526
1.19057	0.263632
1.2096	0.43578
1.22857	0.731033
1.24755	1.13795
1.26653	1.62789
1.28553	2.1771
1.30453	2.76842
1.32356	3.39298
1.34256	4.04227
1.3615	4.71152
1.38051	5.39676
1.39952	6.09721
1.41851	6.80802
1.43752	7.52823
0.802679	-3.54257
0.821712	-0.0557416
0.840686	0.0357689
0.859659	0.0642127
0.878674	0.0784683
0.897617	0.0878358
0.916644	0.0953669
0.935653	0.103448
0.954645	0.111877
0.973576	0.120719
0.992611	0.12883
1.01157	0.135473
1.03061	0.138741
1.04964	0.139526
1.0686	0.138127
1.08756	0.136184
1.10657	0.135333
1.12561	0.137272
1.14459	0.144696
1.16357	0.164649
1.18258	0.216347
1.20155	0.338069
1.22059	0.572441
1.23954	0.927553
1.25857	1.38129
1.27756	1.90624
1.29656	2.4832
1.31555	3.09783
1.33453	3.74318
1.35351	4.41104
1.37258	5.09825
1.39148	5.80038
1.41051	6.51694
1.42948	7.24343
1.44846	7.97808
0.813669	-0.0265707
0.832682	0.0316541
0.85166	0.046091
0.870671	0.054321
0.889671	0.0599037
0.908661	0.0652779
0.927682	0.0704317
0.946634	0.0763544
0.965684	0.0819514
0.984635	0.0874151
1.00364	0.0917627
1.02262	0.0938297
1.0416	0.0941916
1.06063	0.093332
1.0796	0.092152
1.0986	0.0916212
1.11764	0.0931219
1.13658	0.0981782
1.15559	0.111541
1.17457	0.146022
1.1936	0.233637
1.21255	0.421452
1.23162	0.733215
1.25057	1.15032
1.26955	1.64348
1.28857	2.19004
1.30754	2.77473
1.32655	3.3878
1.34553	4.02289
1.3645	4.67523
1.38351	5.34407
1.4025	6.0214
1.42149	6.7126
1.44051	7.41066
0.805708	-0.396308
0.824655	0.0156434
0.843683	0.0416651
0.862671	0.052136
0.881648	0.0586257
0.900648	0.063835
0.919636	0.0687387
0.938649	0.0742218
0.957611	0.0798012
0.976626	0.0855654
0.995646	0.0906425
1.01462	0.0938717
1.0336	0.095093
1.05262	0.0946747
1.07157	0.0932897
1.09064	0.0922352
1.10961	0.0923538
1.12858	0.0947663
1.14752	0.102203
1.1666	0.121976
1.18555	0.173958
1.20455	0.29882
1.22359	0.536927
1.24256	0.893337
1.26152	1.34358
1.28059	1.86228
1.29956	2.43031
1.31856	3.03517
1.33755	3.66826
1.35654	4.32419
1.37554	4.99904
1.39453	5.68863
1.41352	6.38993
1.43251	7.10159
1.18548	0.000000000000000E+000
0.816648	-0.0171277
0.835674	0.0346524
0.854645	0.0493585
0.873658	0.05688
0.892634	0.0621257
0.911579	0.0670013
0.930641	0.0718549
0.949627	0.0772816
0.968597	0.0828715
0.987668	0.0883253
1.00662	0.0923282
1.02562	0.0945049
1.0446	0.0944833
1.06361	0.0934771
1.0826	0.0917838
1.10158	0.0912106
1.12058	0.0918673
1.13961	0.0965177
1.15854	0.108837
1.17761	0.141903
1.19655	0.225543
1.21554	0.403494
1.23463	0.701057
1.25358	1.10642
1.27253	1.59327
1.29157	2.13963
1.31054	2.73006
1.32956	3.35414
1.34851	4.00451
1.36755	4.67737
1.38654	5.36755
1.40551	6.07194
1.42451	6.7883
1.44353	7.51468
0.808674	-0.281488
0.827671	0.0149949
0.846701	0.0516314
0.865681	0.0672392
0.884679	0.0770481
0.903654	0.0845212
0.922659	0.0920078
0.941626	0.0995232
0.960646	0.107369
0.979618	0.114913
0.998614	0.121492
1.0176	0.125476
1.03662	0.127088
1.05558	0.126668
1.0746	0.124914
1.09357	0.123675
1.11258	0.124508
1.13162	0.129161
1.15056	0.142273
1.16959	0.1748
1.18855	0.254236
1.2076	0.426408
1.22661	0.718938
1.24555	1.117
1.26453	1.5904
1.28353	2.11659
1.30257	2.67977
1.32152	3.2716
1.34053	3.885
1.35946	4.51681
1.37852	5.16201
1.39754	5.8213
1.41655	6.49047
1.43547	7.16884
0.800711	-7.77672
0.81967	-0.0382649
0.838703	0.037909
0.857634	0.0623348
0.876657	0.0744603
0.895639	0.0828513
0.914683	0.0900337
0.933603	0.0970966
0.95263	0.104772
0.971637	0.112463
0.99064	0.119744
1.0096	0.125175
1.02858	0.12811
1.04759	0.128448
1.06663	0.127023
1.08562	0.125183
1.10462	0.124376
1.12354	0.125951
1.14257	0.132671
1.16155	0.150702
1.18055	0.19796
1.19954	0.311365
1.21857	0.534604
1.23754	0.875033
1.25656	1.3102
1.27558	1.81239
1.29455	2.36248
1.31359	2.94844
1.33252	3.56242
1.35155	4.19788
1.37053	4.85219
1.38949	5.51964
1.40846	6.20043
1.42753	6.89137
1.44653	7.59112
0.811614	-0.173245
0.830641	0.018777
0.849632	0.0567049
0.868668	0.0718828
0.887612	0.0808126
0.906596	0.0876016
0.925603	0.0941996
0.944606	0.101402
0.963599	0.108833
0.982596	0.116257
1.00165	0.122668
1.02059	0.126613
1.03959	0.127986
1.0586	0.126926
1.07763	0.125034
1.09659	0.12304
1.11562	0.123183
1.13459	0.126843
1.15361	0.138352
1.17257	0.168026
1.19156	0.244467
1.21054	0.410277
1.22955	0.695075
1.24855	1.08743
1.26753	1.56152
1.28654	2.0939
1.30553	2.66841
1.3245	3.27593
1.34355	3.90846
1.36251	4.56204
1.38153	5.23268
1.40055	5.91736
1.41946	6.61196
1.43847	7.31891
0.80369	-2.93052
0.822667	-0.000987147
0.841664	0.0631122
0.860649	0.0830847
0.879647	0.0949913
0.898694	0.105089
0.917677	0.114737
0.936642	0.124981
0.955643	0.135612
0.974625	0.14679
0.993612	0.156325
1.01262	0.164001
1.03161	0.167668
1.05064	0.168413
1.06961	0.16657
1.08859	0.164722
1.10762	0.164193
1.12659	0.168113
1.14558	0.180229
1.1646	0.210359
1.18351	0.282574
1.20253	0.440133
1.22161	0.718607
1.24055	1.10908
1.25954	1.58147
1.27852	2.1112
1.29754	2.68165
1.31656	3.28306
1.33553	3.90861
1.35453	4.55319
1.37354	5.21431
1.39252	5.88735
1.41155	6.5734
1.43053	7.2694
1.44902	7.95529
0.814678	-0.157478
0.833694	0.041052
0.852653	0.0734095
0.871661	0.0892495
0.890639	0.100327
0.909689	0.110535
0.928649	0.12051
0.947648	0.131485
0.966573	0.142596
0.985592	0.153626
1.00462	0.162741
1.02362	0.168627
1.04257	0.17104
1.06162	0.170041
1.08057	0.167676
1.09963	0.165947
1.11859	0.166377
1.1376	0.172137
1.15659	0.188965
1.17559	0.231231
1.19456	0.334656
1.21357	0.543938
1.23253	0.875372
1.25158	1.30755
1.27055	1.81227
1.28952	2.36835
1.30854	2.96278
1.32753	3.58694
1.34652	4.23406
1.36553	4.90077
1.38455	5.58426
1.40349	6.28018
1.42251	6.98777
1.44154	7.70511
0.806687	-1.3253
0.825702	0.00590015
0.844673	0.062949
0.863713	0.0835209
0.882667	0.0965273
0.901644	0.107016
0.920641	0.116866
0.939637	0.127123
0.958641	0.138015
0.977641	0.149261
0.996645	0.159046
1.01561	0.166433
1.03464	0.170303
1.05358	0.17048
1.07258	0.168237
1.0916	0.16594
1.11065	0.164595
1.12953	0.167184
1.14859	0.177423
1.1676	0.204769
1.18654	0.27389
1.20556	0.428106
1.2246	0.701125
1.24355	1.08865
1.26258	1.56305
1.28154	2.09999
1.30058	2.68129
1.31958	3.29836
1.33852	3.94041
1.35755	4.60678
1.37654	5.2907
1.39553	5.98929
1.41449	6.70085
1.43351	7.42246
0.799154	-12.5781
0.8177	-0.0585937
0.836661	0.0301948
0.855645	0.0589603
0.874671	0.0747421
0.893699	0.0854846
0.912665	0.0943792
0.931615	0.10299
0.950656	0.111646
0.969597	0.120188
0.98864	0.12852
1.00763	0.13454
1.02661	0.138329
1.04561	0.138933
1.06458	0.138028
1.08361	0.136579
1.10263	0.136431
1.12157	0.139059
1.14061	0.148126
1.15958	0.170055
1.17853	0.222955
1.19754	0.343803
1.21653	0.579545
1.23555	0.938511
1.25451	1.39594
1.27362	1.92219
1.29255	2.49736
1.31159	3.10812
1.33059	3.74642
1.34954	4.40558
1.36851	5.08173
1.38755	5.77211
1.40651	6.47507
1.42554	7.18734
1.44446	7.9087
0.809728	-0.350273
0.828676	-0.000999407
0.847699	0.0502408
0.866669	0.0712261
0.885686	0.0836182
0.904638	0.0925472
0.923692	0.100776
0.942626	0.108965
0.96164	0.117881
0.980632	0.126307
0.999634	0.134125
1.01863	0.139023
1.03758	0.141423
1.05659	0.141013
1.07555	0.139407
1.09458	0.137618
1.11359	0.137854
1.13258	0.141763
1.15161	0.153159
1.17062	0.182843
1.18959	0.257854
1.20858	0.424455
1.22759	0.715004
1.24656	1.12093
1.26554	1.61306
1.2846	2.16745
1.30357	2.76613
1.3225	3.39944
1.34154	4.05844
1.36054	4.7393
1.37952	5.4371
1.39849	6.1502
1.41749	6.87486
1.4365	7.60891
0.801638	-5.72131
0.820658	-0.0525818
0.839689	0.0394376
0.858623	0.0678746
0.877642	0.0811761
0.896685	0.0904481
0.91565	0.0977476
0.934615	0.10576
0.953653	0.114017
0.972638	0.122697
0.991615	0.13088
1.01064	0.137147
1.02966	0.140597
1.0486	0.140975
1.06762	0.139542
1.08657	0.137253
1.10559	0.135848
1.12457	0.13726
1.14358	0.144233
1.16258	0.162951
1.18159	0.211851
1.20058	0.328655
1.21956	0.557309
1.23858	0.90893
1.25755	1.36254
1.27658	1.88974
1.29553	2.47128
1.31461	3.09234
1.33356	3.74503
1.35256	4.42164
1.37151	5.11902
1.39053	5.83253
1.40953	6.55987
1.42849	7.29878
1.44752	8.04739
0.812687	-0.0295196
0.831691	0.0436915
0.850702	0.0588545
0.869634	0.0668955
0.888671	0.0729514
0.907671	0.0789038
0.926672	0.0846601
0.945596	0.0910097
0.96465	0.0974598
0.983625	0.103482
1.00264	0.108051
1.02163	0.110709
1.04063	0.111123
1.05961	0.110096
1.07864	0.109026
1.09762	0.10867
1.11663	0.110902
1.13559	0.117942
1.15463	0.135046
1.17354	0.175758
1.1926	0.274278
1.21156	0.480678
1.23051	0.819219
1.24952	1.26668
1.26857	1.79037
1.28754	2.36567
1.30657	2.97857
1.32555	3.61734
1.34453	4.27764
1.36353	4.95409
1.38251	5.64441
1.40156	6.34528
1.42056	7.05628
1.43954	7.77544
0.804703	-0.917536
0.823697	0.0247968
0.842669	0.0520638
0.861673	0.0629289
0.880662	0.0700314
0.899642	0.0760668
0.918621	0.0818667
0.937646	0.0879994
0.956639	0.0944476
0.975625	0.101145
0.994597	0.106534
1.01366	0.110408
1.03262	0.111956
1.05159	0.111525
1.07064	0.109806
1.08956	0.108841
1.10858	0.108728
1.12761	0.111917
1.14656	0.120478
1.16555	0.142915
1.18456	0.200997
1.20354	0.341071
1.22256	0.605956
1.24157	0.996898
1.26054	1.48361
1.27954	2.03677
1.29856	2.63695
1.31754	3.27107
1.33654	3.93119
1.35552	4.61084
1.37452	5.30732
1.39354	6.01586
1.4125	6.73633
1.43152	7.46561
1.2536	0.000000000000000E+000
0.815679	-0.0141016
0.834697	0.0432358
0.853669	0.058595
0.872688	0.067395
0.89168	0.0734001
0.91068	0.0792976
0.929623	0.0849268
0.948614	0.091436
0.967587	0.0975708
0.986591	0.10398
1.0056	0.108321
1.02457	0.110942
1.0436	0.110877
1.0626	0.109662
1.08157	0.107825
1.10059	0.106925
1.11959	0.107887
1.13859	0.113076
1.15755	0.127144
1.17658	0.163574
1.19562	0.257478
1.21453	0.457875
1.2336	0.788386
1.25255	1.23083
1.27159	1.75507
1.29051	2.33563
1.30958	2.95768
1.32853	3.60964
1.3475	4.28566
1.36652	4.97984
1.38556	5.68969
1.40451	6.4105
1.42347	7.1435
1.44251	7.88286
0.807691	-0.151128
0.826675	0.0476871
0.845693	0.0608872
0.864659	0.0670345
0.88367	0.0719163
0.902652	0.07645
0.921644	0.08161
0.940608	0.0872275
0.959655	0.0933447
0.978628	0.0992836
0.997615	0.104018
1.01662	0.106775
1.03565	0.107264
1.05459	0.106256
1.07364	0.104643
1.09256	0.103683
1.11161	0.104522
1.13057	0.109308
1.14959	0.121942
1.16857	0.15329
1.18756	0.232229
1.20658	0.409758
1.22556	0.722569
1.24457	1.15813
1.26356	1.68099
1.28259	2.26333
1.30149	2.88674
1.32053	3.54022
1.33954	4.21532
1.35852	4.9088
1.37753	5.61698
1.39651	6.33511
1.41551	7.06426
1.4345	7.80282
0.79966	-12.106
0.818686	0.0311161
0.837657	0.0566779
0.85662	0.0646518
0.875683	0.0696716
0.894664	0.0742112
0.913687	0.079013
0.932584	0.0841353
0.951639	0.0903124
0.970615	0.0962905
0.98961	0.101894
1.00858	0.105899
1.02766	0.107647
1.04663	0.107186
1.0656	0.105669
1.08461	0.103917
1.10359	0.103422
1.1226	0.105171
1.1416	0.111859
1.16057	0.129127
1.17953	0.17482
1.19858	0.288806
1.21753	0.522153
1.23652	0.889571
1.25554	1.36644
1.27454	1.91934
1.29355	2.52637
1.31258	3.17124
1.33157	3.84451
1.35046	4.54005
1.36953	5.25352
1.38851	5.98052
1.40752	6.71813
1.42653	7.46438
1.44554	8.22056
0.810697	-0.0343966
0.829643	0.0505762
0.848677	0.061655
0.867642	0.0672631
0.886641	0.0717553
0.905658	0.0761573
0.92464	0.0810055
0.943641	0.0866266
0.962679	0.0928496
0.981624	0.098603
1.0006	0.10372
1.0196	0.106171
1.03861	0.106697
1.05762	0.105244
1.07662	0.103471
1.09559	0.101725
1.11458	0.102233
1.13359	0.105725
1.15256	0.116701
1.17159	0.144899
1.19055	0.219553
1.20958	0.388969
1.22855	0.689855
1.24754	1.11509
1.26656	1.63286
1.28559	2.21643
1.30451	2.84557
1.32357	3.50968
1.34258	4.19947
1.36153	4.90999
1.38052	5.63592
1.39952	6.37559
1.41851	7.12592
1.43751	7.88597
1.44885	8.35174